Folder: Fracture-mechanics-coursework

Note: README.md
# Fracture-mechanics-coursework
For QMES course fracture mechanics

File: test_thick.csv
Time(sec),Displacement(mm),Load(N),Strain(mm)
0,-0.00407,12741.3,-0.00064
0.3,-0.00119,12804.5,0.00224
0.7,0.0031,12983.5,0.00653
1.1,0.00477,13100.5,0.0082
1.5,0.00909,13326,0.01252
1.8,0.01196,13370,0.01539
2.2,0.01397,13546.2,0.0174
2.6,0.01701,13655.1,0.02043
3,0.01965,13847.2,0.02308
3.3,0.0243,14017.6,0.02773
3.7,0.02571,14138,0.02914
4.1,0.02857,14330.9,0.032
4.5,0.03254,14456.5,0.03596
4.8758,0.03439,14594.8,0.03781
5.2,0.03653,14664.4,0.03996
5.6,0.04341,14948.1,0.04684
6,0.04503,15042.2,0.04845
6.4,0.05069,15230,0.05412
6.7,0.05354,15314.8,0.05697
7.1,0.05665,15483.5,0.06008
7.5,0.05882,15627,0.06225
7.9,0.06243,15720.9,0.06586
8.2,0.06481,15856.9,0.06824
8.6,0.06832,16065.1,0.07175
9,0.07021,16166,0.07364
9.4,0.07553,16306.9,0.07896
9.7608,0.07508,16476.6,0.07851
10.1,0.08046,16633.3,0.08389
10.5,0.08439,16746.6,0.08782
10.9,0.0861,16908.2,0.08953
11.3,0.08841,17084.7,0.09184
11.6,0.09283,17175.3,0.09626
12,0.09483,17369.2,0.09826
12.4,0.09893,17512.7,0.10236
12.8,0.10122,17658.2,0.10465
13.1,0.1063,17823.3,0.10972
13.5,0.10955,17924.5,0.11298
13.9,0.11174,18118.7,0.11517
14.3,0.11625,18274.2,0.11968
14.6,0.11681,18409.3,0.12024
15,0.12224,18566.9,0.12567
15.4,0.1231,18661.3,0.12653
15.8,0.12736,18840.5,0.13079
16.1,0.13002,18942.6,0.13344
16.5,0.13616,19164.2,0.13959
16.9,0.13645,19314.9,0.13988
17.3,0.13926,19473.5,0.14269
17.6908,0.14201,19592.3,0.14543
18,0.14602,19671.7,0.14945
18.4,0.14997,19931.4,0.1534
18.8,0.15335,20088.2,0.15678
19.2,0.15735,20240.5,0.16078
19.5,0.1583,20338.5,0.16173
19.9,0.16176,20415.7,0.16519
20.3,0.16461,20630.1,0.16804
20.7,0.16914,20745.2,0.17257
21,0.1705,20869.7,0.17393
21.4,0.17217,21043.4,0.1756
21.8,0.17558,21218.9,0.17901
22.2,0.18034,21354.2,0.18377
22.5308,0.18401,21464.6,0.18744
22.9,0.18703,21625.8,0.19046
23.3,0.18861,21820.8,0.19204
23.7,0.19615,21918.8,0.19958
24.1,0.19559,22117.6,0.19902
24.4,0.1982,22172.8,0.20163
24.8,0.20434,22315.4,0.20777
25.2,0.20513,22497.6,0.20856
25.6,0.20953,22555.8,0.21296
26,0.21219,22729.7,0.21562
26.3,0.21546,22818.2,0.21889
26.7,0.21915,23001,0.22257
27.1,0.222,23142.7,0.22543
27.5,0.22572,23275.2,0.22915
27.8128,0.22907,23401.4,0.2325
28.2,0.23078,23473.382,0.23421
28.6,0.23302,23609.6,0.23645
29,0.23652,23732.4,0.23995
29.4,0.2398,23842.6,0.24323
29.7758,0.24341,23992.8,0.24684
30.1,0.24521,23994.2,0.24864
30.5,0.25013,24229.6,0.25356
30.9,0.25173,24275.2,0.25516
31.3,0.25501,24429.1,0.25844
31.7,0.25838,24513.8,0.26181
32,0.26258,24651.2,0.26601
32.4,0.26557,24783.9,0.269
32.8,0.2679,24887.8,0.27133
33.2,0.27422,25005.7,0.27765
33.6,0.27426,25087.2,0.27769
33.9488,0.28054,25243.6,0.28397
34.3,0.28137,25274.9,0.2848
34.7,0.28688,25430.3,0.29031
35.1,0.28769,25558.3,0.29112
35.5,0.28954,25640.6,0.29296
35.9,0.29652,25718.2,0.29995
36.2,0.29936,25874.1,0.30279
36.6,0.30082,25953.6,0.30425
37,0.30482,26114.6,0.30824
37.4,0.30507,26174.6,0.3085
37.8,0.31214,26264.8,0.31557
38.2,0.31423,26445.7,0.31766
38.5,0.31796,26464.3,0.32139
38.9,0.32124,26580,0.32467
39.3,0.32026,26716.5,0.32369
39.7,0.32707,26789.9,0.3305
40.1,0.32749,26839.5,0.33092
40.5,0.33289,26970.9,0.33632
40.8,0.33537,27055.8,0.33879
41.2,0.33723,27175,0.34066
41.6,0.34047,27335,0.3439
42,0.34492,27351.3,0.34835
42.4,0.35056,27552,0.35398
42.8,0.35154,27568.4,0.35497
43.1538,0.35561,27733.8,0.35904
43.5,0.35989,27777.3,0.36332
43.9,0.36027,27862.7,0.36369
44.3,0.36417,28011.1,0.3676
44.7,0.36652,28066.9,0.36995
45.1,0.37116,28151.3,0.37458
45.5,0.37668,28299.1,0.38011
45.8658,0.37791,28345.7,0.38133
46.2,0.38068,28452.6,0.38411
46.6,0.38458,28577.2,0.388
47,0.38711,28640.4,0.39054
47.4,0.389,28709.9,0.39243
47.8,0.39189,28827.5,0.39532
48.2,0.39732,28927,0.40075
48.5958,0.40197,28995.1,0.4054
48.9,0.4039,29049.8,0.40732
49.3,0.40632,29189.7,0.40975
49.7,0.40755,29179.2,0.41098
50.1,0.41053,29286.4,0.41396
50.5,0.41763,29397.4,0.42106
50.9,0.42099,29505.3,0.42442
51.3,0.42314,29572.1,0.42657
51.6,0.42766,29633.3,0.43109
52,0.42987,29711.7,0.4333
52.4,0.43254,29759.6,0.43597
52.8,0.43647,29801.2,0.4399
53.2,0.44111,29915.4,0.44454
53.6,0.44413,30064.7,0.44756
54,0.44698,30156.6,0.45041
54.4,0.44904,30136.7,0.45247
54.7,0.45086,30268.3,0.45429
55.1,0.4537,30246.4,0.45712
55.5,0.45898,30392.6,0.46241
55.9,0.46053,30399.2,0.46396
56.3,0.46391,30496.1,0.46734
56.7,0.46704,30620.8,0.47046
57.1,0.47287,30680.1,0.4763
57.5,0.47717,30737.4,0.4806
57.9,0.47936,30837.6,0.48278
58.2,0.4813,30872.2,0.48473
58.6,0.48681,30928.5,0.49024
59,0.48882,30938.2,0.49225
59.4,0.49237,31063.7,0.4958
59.8,0.49337,31065.8,0.4968
60.2,0.50102,31178.3,0.50445
60.6,0.49988,31266.2,0.50331
61,0.50204,31301.7,0.50547
61.4,0.50748,31388.5,0.51091
61.8,0.50771,31365.5,0.51114
62.2,0.51452,31489,0.51795
62.5,0.51613,31525.5,0.51956
62.9,0.52084,31545.2,0.52427
63.3,0.52263,31664.6,0.52606
63.7,0.5261,31755.6,0.52953
64.1,0.53011,31740,0.53354
64.5,0.53508,31821.6,0.53851
64.9,0.53381,31891,0.53724
65.3,0.53919,31887.5,0.54262
65.7,0.54225,31845.5,0.54568
66.1,0.54828,32001.2,0.55171
66.5,0.54981,32097.5,0.55324
66.9,0.55285,32042.4,0.55628
67.2,0.5538,32108.5,0.55722
67.6,0.56108,32154.8,0.56451
68,0.56127,32230.2,0.5647
68.4,0.56696,32297.5,0.57039
68.79999,0.56933,32237.5,0.57276
69.2,0.57063,32287.7,0.57406
69.6,0.57701,32386.2,0.58043
70,0.5776,32414.4,0.58103
70.4,0.58134,32486.4,0.58477
70.79999,0.58595,32490.1,0.58938
71.2,0.58912,32561.9,0.59255
71.6,0.59134,32547.3,0.59477
72,0.59583,32622.4,0.59926
72.4,0.59769,32704.5,0.60112
72.79999,0.60205,32689.3,0.60548
73.1,0.60573,32694,0.60916
73.5,0.60735,32794.3,0.61078
73.9,0.612,32754.5,0.61543
74.29999,0.61211,32733.8,0.61554
74.7,0.61729,32670.3,0.62072
75.1,0.62111,32808.3,0.62454
75.5,0.62447,32877.6,0.6279
75.9,0.63046,32861.2,0.63389
76.29999,0.63181,32863,0.63524
76.7,0.63485,32886.2,0.63828
77.1,0.63884,32896.9,0.64227
77.5,0.6421,32988.3,0.64553
77.9,0.64549,33002.3,0.64892
78.29999,0.64906,33000.5,0.65249
78.7,0.65305,33080.1,0.65648
79.1,0.65376,33059.5,0.65719
79.5,0.66052,33100.8,0.66395
79.5918,0.68192,13564.8,0.68535
79.5958,0.67332,13881.8,0.67675
79.5998,0.66825,12846.9,0.67168
79.6028,0.67008,13156.3,0.67351
79.6068,0.66563,11678.1,0.66906
79.6108,0.66672,11240.8,0.67015
79.6148,0.66478,10844.3,0.66821
79.6188,0.66217,10415,0.6656
79.6228,0.66008,10803.5,0.66351
79.6298,0.66067,10041.1,0.6641
79.6338,0.65964,10034.2,0.66307
79.6518,0.65726,10838.9,0.66069
80,0.662,10785.6,0.66543
80.4,0.66664,10901.7,0.67006
80.79999,0.66928,11056.3,0.67271
81.2,0.67209,11187.4,0.67552
81.6,0.67829,11296.4,0.68172
82,0.68021,11370.2,0.68364
82.3908,0.67958,11469.5,0.68301
82.7,0.68494,11578.2,0.68837
83.1,0.68828,11683.1,0.69171
83.5,0.69321,11798.1,0.69664
83.9,0.69487,11882.2,0.6983
84.29999,0.699,12013.5,0.70243
84.7,0.70188,12039,0.70531
85,0.70461,12200.9,0.70804
85.29999,0.7054,12195.6,0.70883